File: data_raw/brace_buckling_tests/brace-displacement-Black_Strut-1.csv
Displacement [mm],Force [kN]
0,0
-4.78723,-230
-3.85638,-200
-2.92553,-155
-2.26064,-100
-1.46277,-40
-0.664894,30
-0.132979,90
0.531915,300
1.32979,465
2.39362,665
3.19149,815
4.12234,940
5.05319,995
5.45213,1020
5.31915,940
4.78723,830
-0.797872,30
0.398936,235
1.19681,390
2.12766,550
2.79255,720
3.45745,830
4.25532,960
3.45745,705
3.19149,625
2.79255,565
2.5266,475
2.26064,395
1.8617,330
0.797872,100
0.531915,25
0.132979,-60
-1.46277,-270
-1.8617,-305
-2.12766,-325
-2.92553,-330
-3.45745,-330
-2.65957,-265
-1.32979,-95
-0.797872,-50
0.265957,235
1.06383,410
1.99468,595
3.19149,760
3.85638,895
4.78723,990
5.31915,1015
5.31915,915
0.930851,155
-0.930851,-195
-1.72872,-225
-2.39362,-250
-3.32447,-255
-4.3883,-255
-5.18617,-225
-3.7234,-155
-2.79255,-90
-1.72872,-35
2.65957,485
4.25532,740
5.05319,850
5.98404,925
5.05319,700
3.45745,370
-0.132979,-200
-0.531915,-230
-1.19681,-245
-2.12766,-255
-3.85638,-245
-5.31915,-210
-6.78191,-180
-4.12234,-90
-2.12766,-25
-0.664894,55
0.132979,140
1.72872,345
4.52128,750
5.18617,850
6.64894,945
7.04787,985
6.11702,770
4.92021,435
3.45745,140
2.65957,-30
2.12766,-110
1.59574,-155
1.06383,-180
0,-200
-1.72872,-200
-2.79255,-200
-5.18617,-190
-7.31383,-170
-8.1117,-145
-3.98936,-45
-2.12766,30
1.46277,185
2.79255,290
4.25532,515
5.45213,685
6.64894,850
7.31383,890
6.78191,735
6.11702,625
5.05319,375
3.98936,140
3.59043,85
3.05851,15
2.26064,-85
1.06383,-180
-0.265957,-210
-1.8617,-200
-2.5266,-200
-3.45745,-200
-4.92021,-185
-7.31383,-170
-8.90957,-160
-9.9734,-145
-6.51596,-75
-3.7234,-5
-1.06383,70
2.65957,280
3.98936,400
4.78723,485
5.31915,590
6.64894,765
7.18085,825
7.97872,910
8.64362,955
7.31383,610
6.38298,385
5.18617,125
4.78723,35
3.98936,-65
3.19149,-115
2.26064,-160
0.398936,-185
-2.39362,-175
-5.71809,-170
-10.7713,-135
-12.8989,-120
-8.90957,-65
-4.92021,10
-2.26064,65
0.265957,135
3.32447,270
4.3883,330
5.45213,455
7.04787,660
7.97872,775
8.64362,855
9.44149,915
10.2394,960
9.30851,720
6.78191,165
6.25,55
5.31915,-65
4.25532,-125
2.92553,-150
2.26064,-160
1.06383,-175
0.132979,-190
-2.12766,-200
-5.58511,-175
-10.9043,-140
-14.7606,-115
-16.8883,-105
-12.367,-55
-5.98404,35
-1.59574,115
2.92553,225
5.05319,330
6.51596,425
7.71277,590
8.7766,715
9.57447,810
10.5053,900
11.5691,955
9.84043,555
8.7766,305
7.97872,120
7.18085,10
6.51596,-55
5.58511,-100
4.78723,-125
2.26064,-140
0.531915,-150
-6.91489,-140
-21.8085,-95
-16.3564,-45
-12.234,-5
-7.97872,40
-2.92553,100
3.05851,195
5.18617,280
6.38298,350
7.84574,455
9.04255,630
10.2394,750
11.4362,855
11.9681,900
12.5,945
11.1702,580
10.2394,380
9.04255,165
8.51064,70
7.57979,-30
6.78191,-80
6.51596,-95
5.31915,-115
3.98936,-125
2.39362,-140
-1.72872,-140
-24.867,-100
-27.2606,-90
-29.5213,-90
-19.9468,-25
-10.7713,45
-4.25532,100
2.26064,175
5.05319,245
6.78191,325
8.1117,420
9.04255,490
10.1064,630
11.3032,755
12.234,850
12.8989,885
13.4309,915
12.633,735
11.3032,430
10.6383,300
9.9734,190
9.17553,65
8.24468,-25
7.44681,-75
6.51596,-95
5.05319,-125
2.5266,-140
-7.57979,-125
-24.734,-95
-33.6436,-90
-38.1649,-80
-27.2606,-20
-18.3511,30
-11.4362,65
-3.98936,100
-1.59574,120
5.05319,240
6.64894,290
8.37766,380
9.9734,510
11.3032,640
11.8351,735
12.766,815
13.6968,875
14.4947,915
13.9628,720
12.367,380
11.1702,185
10.1064,60
9.04255,-55
7.97872,-85
7.97872,-95
6.91489,-115
5.85106,-120
4.65426,-130
2.39362,-135
-39.4947,-80
-48.8032,-80
-43.484,-50
-38.0319,-30
-31.6489,-5
-24.4681,30
-18.75,50
-13.8298,70
-6.11702,100
-0.664894,135
5.58511,235
7.04787,270
8.51064,335
9.70745,400
11.0372,485
11.8351,570
12.766,670
13.6968,765
14.3617,835
15.5585,930
16.3564,985
17.2872,1025
17.8191,1045
16.6223,685
15.1596,400
13.6968,115
13.0319,-5
12.5,-50
11.7021,-90
10.5053,-125
9.30851,-145
7.97872,-145
5.31915,-145
-14.6277,-110
-27.1277,-95
-39.4947,-90
-63.8298,-70
-52.7926,-30
-46.4096,-5
-40.0266,15
-31.7819,30
-24.2021,55
-16.6223,75
-9.9734,95
-2.92553,125
1.19681,160
4.92021,180
7.04787,225
8.51064,260
9.70745,300
10.7713,345
12.5,435
13.8298,550
14.7606,660
15.8245,745
16.6223,820
17.2872,880
19.1489,995
20.6117,1055
22.0745,1095
23.5372,1120
25.266,1120
19.2819,5
19.4149,0