File: data_raw/brace_buckling_tests/brace-displacement-Black_Strut-15.csv
Displacement [mm],Force [kN]
0,0
0.171527,-82.5792
-2.40137,-272.624
-3.0446,-276.018
-4.2024,-272.624
-5.36021,-262.443
-6.00343,-252.262
-2.78731,15.8371
0.814751,338.235
2.48714,484.163
3.25901,538.462
3.90223,589.367
3.25901,440.045
2.22985,263.575
1.71527,182.127
1.07204,83.7104
0.557461,-7.91855
-1.37221,-299.774
-2.14408,-398.19
-2.78731,-466.063
-2.65866,-421.946
-2.91595,-374.434
-3.55918,-340.498
-4.07376,-313.348
-4.71698,-292.986
-4.71698,-289.593
-6.00343,-259.05
-2.65866,15.8371
0.686106,345.023
2.48714,487.557
3.25901,538.462
4.03087,582.579
3.64494,436.652
2.22985,260.181
1.84391,182.127
1.32933,87.1041
0.686106,-1.13122
0.0428816,-82.5792
-0.857633,-174.208
-1.37221,-214.932
-1.6295,-231.9
-2.01544,-248.869
-2.40137,-255.656
-2.91595,-259.05
-3.55918,-262.443
-4.2024,-259.05
-7.41852,-231.9
-9.21955,-211.538
-12.1784,-177.602
-5.74614,56.5611
-2.40137,192.308
-0.600343,277.149
2.22985,440.045
3.5163,494.344
4.80274,569.005
6.60377,643.665
4.54545,341.629
3.77358,192.308
2.87307,53.1674
2.1012,-38.4615
1.58662,-92.7602
1.07204,-147.059
0.171527,-204.751
-0.343053,-221.719
-0.986278,-225.113
-2.78731,-225.113
-4.07376,-214.932
-11.9211,-157.24
-6.64666,12.4434
-4.84563,73.5294
-0.343053,246.606
1.97256,338.235
4.15952,450.226
5.96055,541.855
7.89022,633.484
6.86106,426.471
6.08919,317.873
5.44597,216.063
4.41681,56.5611
3.5163,-52.0362
3.00172,-109.729
2.35849,-160.633
1.71527,-194.57
1.07204,-208.145
0.943396,-211.538
-1.75815,-211.538
-4.2024,-197.964
-7.9331,-177.602
-10.7633,-160.633
-18.2247,-126.697
-11.9211,-11.3122
-7.28988,83.7104
-4.07376,148.19
0.300172,246.606
2.22985,304.299
4.54545,389.14
6.34648,470.588
8.01887,541.855
9.8199,613.122
10.7204,650.452
9.30532,419.683
8.66209,300.905
8.01887,205.882
7.50429,117.647
6.73242,12.4434
5.70326,-96.1538
5.06003,-143.665
4.41681,-177.602
3.64494,-197.964
2.74443,-204.751
-0.728988,-191.176
-3.55918,-174.208
-8.19039,-153.846
-13.4648,-133.484
-17.7101,-119.91
-9.21955,32.8054
-4.97427,114.253
-2.01544,158.371
1.71527,226.244
3.90223,280.543
6.21784,358.597
8.53345,446.833
10.2058,528.281
12.1355,606.335
13.2933,647.059
11.4923,355.204
10.3345,165.158
9.17667,12.4434
8.66209,-52.0362
8.01887,-119.91
7.50429,-157.24
6.98971,-180.995
6.21784,-194.57
5.18868,-201.357
4.6741,-197.964
2.74443,-187.783
0.171527,-177.602
-3.81647,-160.633
-6.64666,-150.452
-12.1784,-130.09
-16.0377,-116.516
-21.6981,-106.335
-30.3173,-85.9729
-26.8439,-52.0362
-23.1132,-11.3122
-19.1252,26.0181
-14.494,63.3484
-9.47684,104.072
-5.36021,138.009
-0.343053,185.52
2.87307,222.851
5.06003,260.181
7.76158,324.661
10.2058,406.109
12.1355,477.376
14.4511,565.611
16.2521,630.09
17.6672,670.814
19.4683,680.995
17.6672,406.109
16.6381,253.394
15.9949,148.19
14.9657,22.6244
13.9365,-96.1538
13.422,-147.059
12.6501,-180.995
11.8782,-204.751
10.3345,-204.751
9.17667,-201.357
8.01887,-191.176
5.70326,-174.208
3.38765,-164.027
-0.0857633,-147.059
-3.55918,-133.484
-6.51801,-123.303
-10.506,-113.122
-14.8799,-102.941
-29.5455,-79.1855
-26.7153,-48.6425
-21.5695,-4.52489
-16.8096,29.4118
-13.9794,53.1674
-9.21955,80.3167
-0.857633,131.222
3.77358,168.552
7.50429,212.67
9.69125,243.213
11.1063,270.362
13.2933,328.054
15.7376,402.715
17.9245,480.769
19.4683,538.462
21.1407,602.941
22.5557,653.846
23.3276,680.995
24.2281,684.389
22.1698,361.991
20.6261,148.19
19.7256,5.65611
18.9537,-79.1855
18.0532,-136.878
17.5386,-174.208
16.8954,-194.57
15.7376,-197.964
14.0652,-194.57
12.7787,-180.995
10.9777,-170.814
9.04803,-160.633
7.63293,-157.24
5.18868,-147.059
2.74443,-133.484
0.686106,-126.697
-1.50086,-119.91
-4.07376,-116.516
-7.54717,-106.335
-13.2075,-96.1538
-27.3585,-79.1855
-34.5626,-69.0045
-40.8662,-65.6109
-48.8422,-55.4299
-44.5969,-28.2805
-40.3516,-7.91855
-32.3756,29.4118
-25.8148,49.7738
-21.8268,63.3484
-18.2247,73.5294
-12.693,87.1041
-0.986278,127.828
2.35849,144.796
4.80274,158.371
8.01887,185.52
10.4631,209.276
13.6792,246.606
16.1235,290.724
18.0532,331.448
19.9828,382.353
21.6552,436.652
23.7136,507.919
25.3859,579.186
26.5437,630.09
28.2161,670.814
29.5026,691.176
30.6604,697.964
28.3448,341.629
26.801,138.009
25.9005,9.04977
24.7427,-109.729
24.3568,-143.665
23.5849,-177.602
22.2985,-194.57
20.8834,-191.176
19.211,-180.995
15.9949,-164.027
12.3928,-147.059
10.0772,-136.878
6.98971,-126.697
3.90223,-119.91
3.77358,-119.91
-2.91595,-102.941
-8.06175,-89.3665
-12.8216,-79.1855
-20.669,-62.2172
-26.9726,-48.6425
-40.0943,-45.2489
-49.2281,-31.6742
-42.9245,-7.91855
-38.9365,5.65611
-33.5334,19.2308
-27.4871,32.8054
-22.3413,46.3801
-17.3242,49.7738
-11.1492,63.3484
-6.38937,73.5294
-2.40137,83.7104
2.87307,97.2851
5.44597,107.466
7.63293,121.041
10.2058,134.615
12.0069,148.19
14.0652,165.158
16.1235,185.52
17.7959,209.276
19.9828,243.213
22.4271,290.724
24.3568,345.023
26.4151,412.896
27.9588,463.801
29.8885,541.855
31.0463,585.973
31.9468,630.09
33.1046,664.027
34.3911,691.176
35.5489,697.964
36.578,697.964
34.0051,351.81
31.9468,76.9231
30.6604,-72.3982
30.0172,-133.484
29.5026,-167.421
28.7307,-187.783
27.9588,-197.964
26.6724,-194.57
25.1286,-180.995
22.4271,-160.633
16.5094,-126.697
12.0069,-102.941
9.17667,-89.3665
6.86106,-82.5792
1.84391,-72.3982
-3.68782,-58.8235
-13.0789,-45.2489
-61.0635,-21.4932
-60.8062,-21.4932
-51.5437,12.4434
-51.5437,9.04977