File: data_raw/brace_buckling_tests/brace-displacement-Fell_et_al_P1-2.csv
Displacement [mm],Force [kN]
0,0
0.0183,-19.9494
0.0122,-19.294
-0.3126,-83.4898
-0.6012,-125.2524
0.5262,93.1912
0.4008,51.0067
-0.719,-167.7032
-0.1812,-46.0428
0.9491,171.5039
0.0031,-29.2436
-0.913,-186.8885
0.2396,33.2836
0.6934,106.2092
-0.4294,-111.7015
-0.4682,-101.1254
0.6759,117.3181
0.258,21.9935
-0.8812,-196.954
-0.0233,-17.7152
0.9893,162.3619
-0.1543,-57.5424
-0.7497,-156.9185
0.3788,62.1511
0.5239,76.479
-0.5883,-141.5472
-1.3769,-279.7422
-0.2125,-53.431
0.9267,163.6984
0.9691,154.4054
-0.1595,-62.0401
-1.2949,-285.7584
-0.6381,-140.2685
0.4744,76.9852
1.4211,238.2326
0.2405,16.1549
-0.8893,-200.9766
-1.0899,-228.0872
0.0421,-6.9615
1.2081,212.4052
0.6759,100.1309
-0.4351,-116.3458
-1.5192,-320.7278
-0.3731,-86.5889
0.7605,130.1586
1.1504,184.4332
-0.0089,-33.1459
-1.1464,-255.9394
-0.8031,-170.5626
0.3216,46.7177
1.5052,266.0537
0.4039,45.8563
-0.7236,-170.6514
-1.2364,-257.5156
-0.0814,-32.2224
1.0494,183.9847
0.8512,128.1917
-0.2922,-88.0452
-1.4374,-312.687
-2.0691,-414.5672
-0.9237,-186.9151
0.231,29.9176
1.3905,247.974
2.0875,348.3313
0.8856,131.2908
-0.2376,-82.655
-1.3634,-303.6916
-2.1143,-431.8122
-0.9769,-203.8981
0.1545,13.1761
1.3144,230.6047
2.1492,360.4259
0.9668,143.8027
-0.1689,-69.8767
-1.2973,-290.5225
-2.1784,-445.1988
-1.0347,-218.075
0.084,-0.0204
1.2512,216.5166
2.2214,372.6092
1.0243,156.9362
-0.1037,-56.8276
-1.2374,-276.9983
-2.2521,-462.6924
-1.0983,-232.0788
0.0436,-11.37
1.1719,204.2444
2.2893,389.9474
1.0899,168.5868
-0.0227,-45.0305
-1.1727,-264.8771
-2.2859,-483.2496
-1.1594,-244.1423
-0.0114,-21.379
1.1263,192.5051
2.2825,399.8087
1.1627,180.3839
0.0289,-34.01
-1.1145,-252.9601
-2.2354,-474.6804
-1.2195,-256.8318
-0.0675,-33.9203
1.0593,179.4604
2.2196,387.9539
0.8674,124.946
-0.6414,-161.4784
-2.1427,-456.6096
-2.5436,-503.4072
-1.0087,-201.4561
0.4767,85.6254
2.0438,365.9093
2.5557,425.8759
0.9537,144.0691
-0.511,-137.529
-2.0237,-429.1926
-2.6332,-530.0472
-1.1288,-229.0374
0.3728,58.2484
1.9385,340.1706
2.6937,449.6388
1.1061,169.6568
-0.3888,-111.3419
-1.8979,-401.9932
-2.7683,-554.2896
-1.2495,-252.5738
0.2472,35.2199
1.8227,318.0994
2.8029,470.2404
1.2193,191.1065
-0.2761,-89.5681
-1.7853,-380.2505
-2.8722,-573.2928
-2.4662,-495.6372
-2.4679,-496.2588
-2.4648,-496.2588
-2.4669,-496.8804
-2.4623,-496.614
-2.4599,-496.5696
-2.4672,-496.4364
-2.4625,-496.3476
-2.4625,-496.8804
-2.4623,-496.2588
-2.462,-496.8804
-2.4691,-497.9016
-2.459,-497.9904
-2.4613,-497.9016
-2.4665,-497.5908
-2.4663,-497.3688
-2.4691,-497.28
-2.4616,-497.0136
-2.4585,-497.1912
-2.459,-496.6584
-2.4587,-497.502
-2.4616,-496.9692
-2.4611,-497.1024
-2.459,-497.4132
-2.4613,-496.836
-2.4613,-496.9248
-2.4669,-496.3032
-2.4665,-496.3476
-2.4538,-497.1912
-1.3925,-282.273
0.0997,6.9206
1.6563,290.6024
2.9845,498.2124
1.3925,221.1653
-0.1182,-59.4516
-1.6098,-348.6421
-3.1024,-636.1188
-4.86,-780.9516
-7.2451,-655.9656
-9.5016,-578.754
-11.7302,-525.6072
-13.9537,-483.4272
-15.2573,-424.8148
-15.2575,-422.577
-15.2527,-421.7467
-15.2578,-420.7033
-15.2507,-420.1972
-15.2507,-419.6599
-15.2502,-419.2115
-15.2456,-419.0028
-15.2608,-418.7053
-15.2509,-418.2613
-15.2555,-418.1104
-15.2461,-418.0216
-15.2613,-417.693
-15.2591,-417.9017
-15.2514,-417.9905
-15.2563,-417.9328
-15.2512,-417.9905
-15.256,-417.4532
-15.2568,-417.2179
-15.2537,-416.9471
-15.254,-417.098
-15.2484,-416.6496
-15.256,-416.7695
-15.2568,-416.0857
-15.2512,-416.4143
-15.2458,-416.2633
-15.2517,-416.2322
-15.2591,-416.2944
-15.2565,-415.9658
-15.2542,-415.7882
-14.4302,-363.2986
-12.5773,-234.1345
-10.7363,-91.353
-9.3878,15.6488
-9.3904,14.3079
-9.3883,13.2951
-9.3802,13.1166
-9.3853,13.0572
-9.3828,12.7592
-9.3774,12.8485
-9.3779,13.027
-9.3932,12.4911
-9.3835,11.8952
-9.3835,12.4911
-9.3835,12.4613
-9.3805,12.9377
-9.3853,12.61
-9.3825,12.1931
-9.3833,12.61
-9.3805,11.8655
-9.3802,12.729
-9.3828,12.2526
-9.3774,11.9547
-9.3774,12.0142
-9.3802,11.2696
-9.3797,11.2101
-9.3777,11.5973
-9.382,11.4778
-9.3825,11.9547
-9.38,11.6865
-9.38,11.7758
-9.3772,11.508
-9.3749,11.8357
-9.3723,12.2526
-9.383,12.1634
-9.3777,11.746
-9.3797,11.4485
-9.3749,11.9547
-9.3746,11.627
-9.3797,11.3589
-9.3744,11.4183
-9.379,11.3886
-9.3764,11.2994
-9.3746,11.0907
-9.3772,10.9419
-9.3772,11.2399
-9.38,11.1204
-9.3769,11.1204
-9.3772,11.0907
-9.3749,10.7333
-9.379,10.4056
-9.3823,10.6143
-9.3817,10.7333
-9.369,10.8229
-9.382,11.2994
-9.3815,10.7333
-9.3792,11.0312
-9.3784,10.8527
-9.3718,10.7928
-9.3739,10.7928
-9.379,10.7035
-9.3739,10.7928
-9.3767,10.1077
-9.3739,10.1374
-9.3764,10.9122
-9.3787,10.9419
-8.858,60.7481
-7.0129,196.7675
-5.1509,317.2646
-3.3043,428.6154
-1.4715,533.5104
0.3823,634.1208
2.2388,730.6464
4.1034,820.4232
5.9901,895.8144
7.94,951.5808
9.9469,987.1452
11.9817,1009.523
14.0739,1024.264
15.0754,943.2336
13.4173,720.7452
11.8214,497.724
10.2413,256.4633
8.6815,11.806
7.11,-204.613
5.3876,-383.4073
3.5128,-490.5756
1.4398,-517.704
-0.6949,-507.5808
-2.8202,-488.0448
-4.969,-466.866
-7.1559,-442.8944
-9.3086,-418.3768
-11.4475,-396.2744
-13.6238,-377.2712
-15.3226,-339.3758
-13.3942,-258.7099
-11.4028,-171.2197
-9.4986,-76.994
-7.6411,16.1549
-5.7173,106.3868
-3.7828,189.0508
-1.8376,265.1612
0.0966,337.6087
2.0742,410.2072
3.9817,483.6492
5.9106,560.2836
7.8123,639.0936
9.7399,721.278
11.623,803.7732
13.5339,882.894
15.4836,955.1772
13.9906,721.8996
12.3604,497.4132
10.8003,257.298
9.2309,15.4698
7.6124,-191.8924
5.825,-344.4996
3.8979,-418.4966
1.8147,-438.4855
-0.3058,-436.0124
-2.4288,-425.8848
-4.5563,-413.5549
-6.7003,-400.7455
-8.844,-387.5454
-10.9746,-372.7114
-13.1272,-357.9972
-15.2433,-343.9357
-17.4084,-331.1574
-19.5283,-319.2982
-21.6482,-308.873
-23.8016,-299.074
-25.9385,-289.9897
-27.9578,-274.7072
-26.8072,-238.2726
-26.7868,-237.5
-26.7843,-237.4379
-26.7945,-237.6776
-26.7894,-237.6466
-26.7894,-237.3491
-26.7919,-237.3491
-26.7868,-237.1404
-26.7919,-237.2603
-26.7843,-236.9628
-26.7843,-236.9317
-26.7868,-236.723
-26.7945,-236.4256
-26.7945,-236.4877
-26.7894,-236.6653
-26.7919,-236.9317
-25.781,-211.7614
-23.7515,-160.7014
-21.734,-106.5156
-19.7551,-50.7803
-17.8079,3.3159
-15.7858,55.1182
-13.7721,103.1101
-11.7391,146.8708
-9.732,187.4701
-7.713,226.3778
-5.669,264.2999
-3.6604,302.8435
-1.6561,342.9989
0.3698,385.8671
2.3983,432.3672
4.3729,482.85
6.3132,537.9504
8.2997,597.7572
10.2377,662.004
12.1829,728.6484
14.1333,798.1788
16.0952,868.8192
18.0398,937.4172
20.001,994.782
22.0754,1025.418
24.1244,1036.296
26.2433,1044.821
27.7749,994.0716
26.1315,774.1584
24.4815,557.5308
22.9278,328.3735
21.2956,91.2553
19.6832,-119.5958
17.9405,-291.002
16.0371,-394.756
13.9878,-432.3184
11.8704,-434.7914
9.7394,-425.1389
7.5969,-412.0054
5.4724,-397.4377
3.3271,-382.6614
1.1683,-368.005
-0.9771,-354.0634
-3.1077,-340.7789
-5.2073,-328.5067
-7.3706,-317.127
-9.5054,-306.9061
-11.6241,-297.1958
-13.7716,-288.2581
-15.8722,-280.0086
-18.0203,-272.5006
-20.1292,-265.2944
-22.2522,-258.6211
-24.387,-252.2453
-26.5024,-246.4067
-27.3939,-216.9739
-26.4338,-200.5903
-26.4312,-200.1419
-26.4338,-200.173
-26.4262,-200.2618
-25.1127,-176.1925
-23.0579,-138.1506
-21.0033,-98.2661
-19.001,-57.2138
-16.985,-16.6726
-14.971,22.2915
-12.955,59.2607
-10.9075,92.9203
-8.873,124.169
-6.8296,153.2155
-4.7579,180.7391
-2.698,207.3702
-0.6708,234.0324
1.3828,260.8722
3.4564,289.1106
5.5062,319.0495
7.5296,350.7156
9.5799,385.6273
11.5842,424.1488
13.6121,466.7772
15.6134,513.93
17.5969,566.1444
19.575,623.1096
21.5699,684.5592
23.5207,749.5608
25.4533,817.6704
27.4244,886.1796
27.8968,866.1552
26.5049,677.4996
24.8778,456.7872
23.2806,225.5742
21.6304,5.6397
19.9144,-165.7985
18.0332,-275.3599
16.0175,-328.298
13.9375,-348.762
11.827,-353.8236
9.7213,-351.2617
7.5804,-345.6052
5.444,-337.7375
3.3409,-329.3992
1.202,-320.79
-0.9475,-312.6293
-3.0704,-304.2288
-5.1603,-296.481
-7.3043,-288.7376
-9.4226,-281.1408
-11.5461,-273.6949
-13.6878,-266.6042
-15.7777,-259.6912
-17.9403,-253.2887
-20.0528,-246.7352
-22.1623,-240.6258
-24.3063,-234.0457
-26.4287,-226.9817
-28.5394,-218.075
-30.6705,-206.6687
-32.8422,-195.5554
-34.9783,-186.2935
-37.1272,-178.2172
-39.2532,-171.1886
-39.6037,-143.785
-39.4564,-142.7105
-39.4513,-142.2931
-39.4437,-141.8758
-39.4437,-141.636
-39.4437,-141.5206
-39.4411,-141.5783
-39.4437,-141.4318
-39.4462,-141.6982
-39.4462,-141.8447
-39.4462,-141.5472
-39.4411,-141.7559
-39.4386,-141.4895
-39.4386,-141.1609
-39.4437,-141.4895
-39.4411,-141.4318
-39.4386,-141.3119
-39.4437,-141.3696
-37.8943,-122.3042
-35.8064,-97.4624
-33.7185,-72.1411
-31.6433,-46.5223
-29.5885,-21.2006
-27.5438,3.018
-25.4864,25.9256
-23.4074,47.1972
-21.3253,67.2127
-19.2799,85.9495
-17.1988,103.7939
-15.1127,121.0433
-13.0541,137.8442
-10.9629,154.885
-8.8938,171.8324
-6.841,189.0818
-4.7442,206.8951
-2.6721,225.2146
-0.6212,244.4886
1.4443,264.9526
3.5276,286.6686
5.586,310.1429
7.6266,335.6418
9.7023,363.9113
11.7292,395.2222
13.7678,430.3115
15.7927,469.0416
17.8206,513.1752
19.8161,562.4148
21.829,616.8936
23.7874,676.212
25.7124,739.5264
27.7114,806.6592
29.6494,875.8344
31.6128,941.502
33.589,998.2896
35.6413,1034.342
37.7292,1046.597
39.8501,1053.035
39.3471,879.1644
37.7012,665.6892
36.0858,448.662
34.45,218.4214
32.8244,-1.5694
31.1226,-182.5994
29.2786,-308.9041
27.2593,-369.8831
25.1755,-388.2025
23.0538,-387.905
20.937,-380.1572
18.7549,-369.226
16.6116,-356.6252
14.4582,-342.2974
12.3149,-322.5482
10.1387,-295.5575
7.972,-272.2342
5.8326,-253.8836
3.6695,-238.6322
1.5292,-226.0582
-0.6067,-215.007
-2.7269,-205.4743
-4.8484,-197.0738
-6.9992,-189.2728
-9.0957,-182.4485
-11.2225,-176.0726
-13.3528,-170.1763
-15.4638,-164.9016
-17.5915,-159.9288
-19.7127,-155.6708
-21.814,-151.4972
-23.9588,-147.5057
-26.0502,-143.8116
-28.1813,-140.5082
-30.3124,-136.9918
-32.4282,-134.2212
-34.5618,-130.9756
-36.6954,-128.1739
-38.8214,-125.4611
-40.1345,-107.71
-40.132,-107.3192
-40.1269,-107.0218
-40.1295,-106.7243
-40.132,-106.5156
-40.132,-106.3691
-40.132,-106.3069
-40.132,-106.338
-40.1295,-106.3691
-40.1345,-106.3957
-40.1295,-106.0094
-40.1244,-106.0094
-40.1295,-106.0405
-40.1295,-106.0982
-40.1269,-105.8896
-40.1295,-105.9517
-40.1345,-105.5921
-40.1295,-106.0094
-38.6105,-91.8902
-36.5252,-73.8994
-34.4373,-55.9351
-32.3164,-38.121
-30.2641,-21.2898
-28.1915,-5.7103
-26.1112,8.6482
-24.0386,21.6361
-21.9243,33.7902
-19.8542,44.7508
-17.7856,55.4156
-15.6538,65.339
-13.5809,75.1958
-11.4976,84.8484
-9.4036,94.4388
-7.3223,104.3622
-5.207,114.4898
-3.1552,125.0038
-1.0692,135.9084
1.0333,147.6122
3.1382,160.1242
5.2192,173.6795
7.2827,188.5757
9.3596,205.4344
11.4249,223.9936
13.5136,245.3544
15.5806,269.4814
17.6515,297.2758
19.7165,329.4169
21.7617,366.5664
23.7808,409.4923
25.7734,457.9416
27.7774,512.598
29.7612,572.538
31.7017,637.0956
33.6525,706.0044
35.621,778.2432
37.5564,852.258
39.5021,925.1184
39.6469,826.5504
39.3573,788.0112
39.3573,787.5672
39.3548,786.8124
39.3624,786.6792
39.3548,786.768
38.9103,728.826
37.2669,512.9532
35.6489,286.1047
34.0081,63.2522
32.3291,-119.951
30.4673,-245.4832
28.4861,-309.3215
26.3728,-332.5871
24.2707,-331.486
22.1089,-310.9288
19.9243,-286.7396
17.761,-266.0981
15.5852,-248.2226
13.4468,-233.2687
11.2972,-220.2196
9.1697,-209.1995
7.0328,-199.578
4.9152,-191.0887
2.7902,-183.4919
0.6428,-176.6987
-1.4795,-170.5937
-3.589,-165.0836
-5.7102,-159.9288
-7.8303,-155.1025
-9.9489,-150.5737
-12.0731,-146.3735
-14.1864,-142.6217
-16.3055,-138.9853
-18.4274,-135.9794
-20.5306,-132.6139
-22.6555,-129.6924
-24.7747,-126.7442
-26.8757,-124.5376
-29.0017,-121.7404
-31.1455,-119.4449
-33.2537,-117.0029
-35.4025,-114.7962
-37.5361,-112.7138
-39.6367,-110.7158
-41.7576,-108.9887
-43.876,-106.9951
-46.0172,-105.3834
-48.1152,-103.8338
-50.2488,-102.1688
-52.3824,-100.4994
-54.4906,-99.2784
-56.6014,-97.9952
-58.7477,-96.4768
-60.3098,-80.0932
-60.2437,-79.7957
-60.2513,-78.7523
-60.2412,-78.7523
-60.2412,-78.6324
-60.2513,-78.4859
-60.2488,-78.6946
-60.2539,-78.7256
-60.2488,-78.5436
-60.2437,-78.1884
-60.2513,-78.5436
-60.2463,-78.2461
-60.2463,-78.3083
-60.2488,-78.4548
-60.2463,-78.4548
-60.2463,-78.5747
-60.2463,-78.3083
-60.2437,-78.6635
-60.2386,-78.6324
-60.2386,-78.2461
-60.2463,-78.7834
-60.2488,-78.6058
-60.2437,-78.5747
-60.2463,-78.5436
-60.2513,-79.0231
-59.4716,-73.331
-57.3659,-61.6849
-55.2399,-50.1542
-53.1647,-38.7763
-51.0743,-27.6053
-48.9737,-17.5664
-46.8859,-7.9445
-44.7954,0.5752
-42.6796,8.5883
-40.5816,15.6483
-38.5039,22.232
-36.388,28.4577
-34.2748,34.3563
-32.1615,40.0159
-30.0279,45.3768
-27.94,50.6826
-25.8445,55.8064
-23.7437,61.1965
-21.6073,66.378
-19.5273,71.5906
-17.4269,76.7765
-15.3137,82.4952
-13.2344,87.7078
-11.1448,93.8172
-9.0338,99.6247
-6.972,105.9695
-4.8415,112.6739
-2.7488,119.7024
-0.6645,127.2992
1.4448,135.2513
3.5408,144.189
5.6281,153.8682
7.6972,164.5331
9.8087,176.5078
11.8971,189.7656
13.9779,204.9593
14.0993,198.317
14.096,196.9451
14.0998,195.7818
14.0973,195.6664
14.0978,195.4266
14.0978,195.7552
14.1011,194.8583
14.1041,194.7428
14.1056,194.623
14.1094,194.2944
14.1011,193.846
14.0937,193.5796
14.1089,193.8193
14.112,193.3398
14.1021,193.6373
14.1039,193.1622
14.1072,193.4908
14.0973,192.656
14.1041,193.0423
14.1018,192.8026
14.1021,192.8647
14.1079,192.8336
14.1023,193.402
14.1023,193.1622
14.1023,193.1622
14.11,192.656
14.0998,192.2964
14.1028,192.656
14.1054,192.0877
14.0947,191.9101
16.051,222.8036
18.1249,243.0278
20.2093,266.6531
22.2824,294.6828
24.323,327.8984
26.3601,367.8762
28.3997,415.806
30.3809,472.7712
32.3342,539.1492
34.2798,614.3184
34.511,607.9248
34.5186,605.0388
34.5186,603.3516
34.5186,601.9752
34.5161,601.2648
34.5211,600.954
34.5211,600.51
34.5237,600.6876
34.5237,599.7552
34.5211,599.4444
36.3652,703.0296
38.2956,788.1888
40.2082,872.5932
42.1513,950.9148
44.1274,1011.61
46.1747,1039.582
48.3006,1048.417
50.4393,1054.456
52.5069,1059.384
54.6608,1064.135
56.7919,1068.664
58.9178,1073.37
60.2513,1008.99
60.1802,995.9364
58.6969,803.3736
57.0128,594.6048
55.3949,377.4666
53.7413,155.0315
52.0827,-44.4044
50.3174,-204.9104
48.3972,-305.6274
46.3855,-349.6234
44.257,-359.4535
42.103,-348.4334
39.9161,-319.569
37.7241,-291.3883
35.5473,-267.6166
33.3807,-248.1649
31.209,-232.3141
29.0678,-218.3459
26.8808,-206.5488
24.7487,-196.4212
22.6154,-187.4834
20.4559,-179.558
18.3307,-172.4096
16.1679,-165.945
14.0378,-160.1375
11.9002,-155.0448
9.7729,-150.0986
7.6566,-145.5388
5.5273,-141.7292
3.4183,-138.0618
1.2762,-134.5764
-0.8477,-131.3885
-2.9609,-128.3515
-5.0483,-125.4922
-7.1933,-122.8104
-9.2837,-120.4883
-11.4186,-117.8953
-13.5291,-115.6931
-15.6334,-113.4598
-17.7518,-111.4618
-19.8651,-109.557
-21.973,-107.71
-24.1021,-105.9828
-26.2153,-104.34
-28.3489,-102.5862
-30.4571,-100.9168
-32.5857,-99.5182
-34.7116,-98.0574
-36.8554,-96.6588
-38.9534,-95.3756
-41.0794,-94.0658
-43.2105,-92.725
-45.3365,-91.6505
-47.4497,-90.4606
-49.5706,-89.506
-51.7017,-88.1651
-53.8175,-87.3348
-55.9333,-86.2914
-58.0644,-85.4567
-60.1853,-84.5642
-60.1421,-68.891
-60.1472,-68.2073
-60.1421,-67.7322
-60.1447,-67.821
-60.1472,-67.6123
-60.1396,-67.8787
-60.1421,-67.5812
-60.1421,-67.821
-60.1421,-67.6123
-60.1421,-67.226
-58.2041,-58.8833
-56.073,-50.1276
-53.9699,-41.3382
-51.8668,-32.6993
-49.7586,-24.5372
-47.6682,-16.9408
-45.5803,-9.9403
-43.4721,-3.4463
-41.3614,2.4519
-39.2582,8.0524
-37.1602,13.1464
-35.0418,17.5851
-32.9438,22.113
-30.8127,26.2537
-28.702,30.6027
-26.6014,34.505
-24.4945,38.1991
-22.3759,41.9824
-20.2695,45.7054
-18.1765,49.3417
-16.068,53.0935
-13.9819,56.6988
-11.8628,60.5128
-9.7551,64.0559
-7.6589,67.9276
-5.5623,71.6527
-3.4615,75.5244
-1.3707,79.4582
0.7554,83.6274
2.8631,87.9164
4.9771,92.2676
7.0714,97.1516
9.173,102.1555
11.286,107.2793
13.3916,112.6117
15.4884,118.7212
17.6215,124.9727
19.7256,131.9746
21.8473,139.2739
23.956,147.226
26.0579,155.5066
28.1838,162.9569
30.3098,170.4028
32.4079,180.4416
34.5008,192.5939
36.6166,206.5666
38.7147,223.1011
40.8026,240.2884
42.9082,256.9117
44.9859,280.8611
47.0357,310.5292
49.1134,339.7266
51.4426,240.7634
53.5,268.62
55.5625,311.1863
57.5462,377.3778
59.6036,421.0496
59.6036,285.7451
59.2379,249.5236
59.2353,249.4037
59.2353,248.5379
59.2303,249.195
59.2353,249.3149
59.2353,249.5236
59.2303,249.4037
59.2303,249.6124
59.2328,250.0874
59.2353,250.0297
59.2277,249.972
58.1203,144.3355
56.2407,32.1221
54.2315,-22.0939
52.1843,-51.0511
50.0888,-67.7899
47.9679,-78.8722
45.8724,-91.353
43.754,-104.9083
41.6509,-110.2408
39.5224,-112.7716
37.3863,-114.5875
35.2628,-115.8707
33.1394,-117.6556
31.0109,-119.4138
28.8823,-119.325
26.7208,-118.9964
24.6192,-118.5524
22.4833,-118.3127
20.3571,-118.1662
18.2115,-117.2693
16.0846,-116.1992
13.9576,-114.29
11.8288,-112.5052
9.7,-111.4928
7.5766,-110.2718
5.4729,-108.931
3.3599,-107.5279
1.2261,-105.9517
-0.903,-104.2512
-3.0086,-102.5551
-5.1107,-100.9168
-7.2499,-99.3095
-9.3355,-97.8176
-11.448,-96.2681
-13.5768,-94.8384
-15.6868,-93.4398
-17.8046,-92.13
-19.9034,-90.8468
-22.0129,-89.4482
-24.1605,-88.285
-26.2585,-87.0062
-28.4048,-85.843
-30.4978,-84.7418
-32.6365,-83.7872
-34.7675,-82.624
-36.891,-81.585
-39.0195,-80.5993
-41.1226,-79.5559
-43.2486,-78.5747
-45.3669,-77.8288
-47.4929,-77.0562
-49.596,-76.3414
-51.7423,-75.4489
-53.8582,-74.6142
-55.9689,-73.8683
-58.1203,-72.9448
-60.231,-72.1411
-62.3443,-71.4263
-64.4576,-70.7114
-66.5861,-69.8456
-68.6968,-69.1308
-70.8431,-68.2384
-72.9564,-67.6123
-75.0748,-67.1372
-74.93,-48.6979
-72.8193,-42.3509
-70.7238,-36.2739
-68.6003,-31.1502
-66.4769,-27.0094
-64.3687,-23.3455
-62.2732,-20.1878
-60.165,-17.7152
-58.0619,-15.2132
-55.9359,-13.1277
-53.8074,-10.953
-51.6992,-9.2552
-49.5656,-7.3486
-47.4701,-5.4421
-45.3517,-3.9825
-43.2486,-2.493
-41.1099,-1.0333
-39.0195,0.3668
-36.8935,1.6477
-34.7675,2.7798
-32.6517,4.299
-30.513,5.3715
-28.4124,6.6822
-26.3195,8.0226
-24.1836,8.9164
-22.0678,10.1379
-19.9476,11.2994
-17.8509,12.4911
-15.7338,13.7125
-13.6357,14.6658
-11.5245,15.8273
-9.411,16.6615
-7.3279,17.883
-5.1915,18.747
-3.0843,19.9978
-1.0061,21.1597
1.1237,22.0535
3.2482,23.096
5.3551,24.2579
7.4521,25.2112
9.5618,26.2835
11.6883,27.4454
13.8052,28.7859
15.9271,29.8879
18.0622,31.2882
20.178,32.7774
22.3086,34.0881
24.4432,35.8161
26.5405,37.4843
28.7122,39.3015
30.8305,41.5358
32.926,43.5315
35.0622,46.065
37.1958,49.102
39.3319,52.2899
41.4503,56.015
43.5813,60.8369
45.6997,66.6488
47.8028,73.9171
49.9313,83.6274
52.0344,97.418
54.1147,118.0951
56.2026,151.4573
58.2117,203.7649
60.2717,256.0193
62.4129,244.2488
65.0138,2.0648
67.1576,2.6605
68.2854,1.7073